ProDataStore
Tue Apr 29 14:09:34 2014
Remarks:
5
#HT (Fluorescence channel): 490.005
#HT (Absorbance channel): 490
#Samples per point: 8000
#Sample period: 12.5 us
#Temperature: 22.71 C
0
Properties:
1
Fluorescence -dual
Dimensions:
3
Time -ovs 
100
0.1,0.2,0.3,0.4,0.5,0.6,0.7,0.8,0.9,1,1.1,1.2,1.3,1.4,1.5,1.6,1.7,1.8,1.9,2,2.1,2.2,2.3,2.4,2.5,2.6,2.7,2.8,2.9,3,3.1,3.2,3.3,3.4,3.5,3.6,3.7,3.8,3.9,4,4.1,4.2,4.3,4.4,4.5,4.6,4.7,4.8,4.9,5,5.1,5.2,5.3,5.4,5.5,5.6,5.7,5.8,5.9,6,6.1,6.2,6.3,6.4,6.5,6.6,6.7,6.8,6.9,7,7.1,7.2,7.3,7.4,7.5,7.6,7.7,7.8,7.9,8,8.1,8.2,8.3,8.4,8.5,8.6,8.7,8.8,8.9,9,9.1,9.2,9.3,9.4,9.5,9.6,9.7,9.8,9.9,10

Wavelength -iter
1
250

Channel
2
3,1



-0.000391007,-0.000338555,-0.000462532,-0.000452996,-0.00035286,-0.000419617,-0.00048399,-0.000438691,-0.000362397,-0.000486374,-0.000424385,-0.000476838,-0.000338555,-0.000479222,-0.000541211,-0.000422001,-0.000500679,-0.000371933,-0.000481606,-0.000569821,-0.000333786,-0.000441075,-0.000488758,-0.000262261,-0.000474453,-0.000312329,-0.00045538,-0.000371933,-0.000441075,-0.000462532,-0.000407696,-0.000441075,-0.000355244,-0.000433922,-0.000629426,-0.000417233,-0.000476838,-0.000395775,-0.00052929,-0.000345707,-0.000429154,-0.000405312,-0.000431538,-0.000469685,-0.000519753,-0.000367165,-0.00023365,-0.000400544,-0.000562668,-0.00042677,-0.000617505,-0.000314713,-0.000457764,-0.000548363,-0.000386238,-0.00045538,-0.000505448,-0.000460148,-0.000500679,-0.000419617,-0.000450611,-0.0005126,-0.000441075,-0.000491143,-0.000472069,-0.000464917,-0.000369549,-0.000479222,-0.000641346,-0.000467301,-0.000474453,-0.0005126,-0.000574589,-0.000417233,-0.00041008,-0.000350476,-0.000464917,-0.000422001,-0.000503064,-0.000567437,-0.000402928,-0.00048399,-0.000505448,-0.000524521,-0.000326634,-0.00042677,-0.000491143,-0.000419617,-0.000383854,-0.000562668,-0.000452996,-0.000538826,-0.000407696,-0.000379086,-0.000457764,-0.000488758,-0.000367165,-0.000431538,-0.000472069,-0.000414849

-0.00261545,-0.00263691,-0.00262737,-0.00259876,-0.00263214,-0.00262499,-0.0026393,-0.00260592,-0.00265598,-0.00266552,-0.00266075,-0.00261784,-0.00267506,-0.002594,-0.00264883,-0.00262022,-0.00264406,-0.00262976,-0.00257492,-0.00258446,-0.00264168,-0.00262976,-0.00261784,-0.00262976,-0.0026083,-0.00254631,-0.00257492,-0.00264645,-0.00258446,-0.00264645,-0.00264406,-0.00259638,-0.00261545,-0.00259161,-0.00263214,-0.00261069,-0.00262737,-0.00266552,-0.00257492,-0.00266791,-0.00258923,-0.00267983,-0.0026989,-0.00260592,-0.00255108,-0.00262022,-0.00260115,-0.00263453,-0.00264168,-0.00266314,-0.00260115,-0.00258684,-0.00258684,-0.00260115,-0.00258684,-0.00260592,-0.00266791,-0.00263214,-0.00258446,-0.00259638,-0.00267506,-0.0026393,-0.0026393,-0.00262022,-0.00265122,-0.00263214,-0.00261307,-0.00258208,-0.00260115,-0.00262976,-0.00263453,-0.00263691,-0.00264406,-0.00262976,-0.00262261,-0.00255346,-0.00259876,-0.00259161,-0.00266552,-0.00259161,-0.00264168,-0.00259638,-0.00265837,-0.00258684,-0.00264168,-0.00261784,-0.00264883,-0.00261069,-0.00254154,-0.00260353,-0.00256777,-0.0026083,-0.00260592,-0.00265837,-0.00261069,-0.00261784,-0.00263214,-0.00262976,-0.00262737,-0.00262976
History:
0
0
