ProDataStore
Tue Apr 29 14:10:16 2014
Remarks:
5
#HT (Fluorescence channel): 470.001
#HT (Absorbance channel): 470
#Samples per point: 8000
#Sample period: 12.5 us
#Temperature: 22.66 C
0
Properties:
1
Fluorescence -dual
Dimensions:
3
Time -ovs 
100
0.1,0.2,0.3,0.4,0.5,0.6,0.7,0.8,0.9,1,1.1,1.2,1.3,1.4,1.5,1.6,1.7,1.8,1.9,2,2.1,2.2,2.3,2.4,2.5,2.6,2.7,2.8,2.9,3,3.1,3.2,3.3,3.4,3.5,3.6,3.7,3.8,3.9,4,4.1,4.2,4.3,4.4,4.5,4.6,4.7,4.8,4.9,5,5.1,5.2,5.3,5.4,5.5,5.6,5.7,5.8,5.9,6,6.1,6.2,6.3,6.4,6.5,6.6,6.7,6.8,6.9,7,7.1,7.2,7.3,7.4,7.5,7.6,7.7,7.8,7.9,8,8.1,8.2,8.3,8.4,8.5,8.6,8.7,8.8,8.9,9,9.1,9.2,9.3,9.4,9.5,9.6,9.7,9.8,9.9,10

Wavelength -iter
1
250

Channel
2
3,1



-0.00109673,-0.00108957,-0.00112057,-0.000998975,-0.000953675,-0.00103712,-0.000898839,-0.0010109,-0.000991822,-0.00108481,-0.000963212,-0.000987054,-0.00107765,-0.00107288,-0.00100374,-0.00108481,-0.00115872,-0.00102043,-0.00108004,-0.000982285,-0.000982285,-0.00109911,-0.0010705,-0.00100374,-0.000920296,-0.00100613,-0.00110865,-0.00103474,-0.00106096,-0.000946522,-0.00101805,-0.000905991,-0.000972749,-0.00100613,-0.00109434,-0.00109434,-0.00100374,-0.00101805,-0.000951291,-0.0011158,-0.00109434,-0.00108957,-0.00104427,-0.000987054,-0.00103235,-0.000891686,-0.000891686,-0.000965596,-0.0010705,-0.000987054,-0.00106573,-0.000934602,-0.00113487,-0.00102997,-0.000956059,-0.00115156,-0.00100374,-0.00103474,-0.00107765,-0.0010705,-0.000946522,-0.0011158,-0.000941754,-0.000991822,-0.0010252,-0.00104904,-0.000991822,-0.000946522,-0.000932217,-0.00100374,-0.000994206,-0.000970364,-0.00105858,-0.00102282,-0.000972749,-0.00108004,-0.000941754,-0.000977517,-0.00108242,-0.00106573,-0.00100136,-0.00106096,-0.000951291,-0.00100851,-0.000898839,-0.000970364,-0.00108719,-0.00108481,-0.00103951,-0.00107527,-0.00100613,-0.000991822,-0.00103235,-0.00110388,-0.00105143,-0.00109673,-0.000972749,-0.00108242,-0.00114203,-0.00101805

-0.00280857,-0.00283957,-0.00281334,-0.00279188,-0.00281096,-0.00277996,-0.0028348,-0.00273466,-0.00277758,-0.00276566,-0.00283241,-0.0028348,-0.00279188,-0.00279188,-0.00280619,-0.00284434,-0.0028348,-0.00284434,-0.00281811,-0.00278712,-0.00280857,-0.00277043,-0.0027895,-0.00282288,-0.00282049,-0.00281096,-0.00283241,-0.00279188,-0.00279188,-0.00277758,-0.00281096,-0.0028348,-0.0028038,-0.00282288,-0.00279188,-0.00282049,-0.00279665,-0.00281096,-0.00283718,-0.00282765,-0.00281811,-0.0028491,-0.00277996,-0.0028038,-0.00281573,-0.00279904,-0.00279188,-0.00276804,-0.00279427,-0.00280857,-0.00278473,-0.00277758,-0.00282049,-0.00278235,-0.00281811,-0.00280142,-0.00280619,-0.00283241,-0.00280857,-0.00281573,-0.00278473,-0.00281811,-0.00282288,-0.0027895,-0.00279427,-0.00279665,-0.00279904,-0.00282288,-0.00279427,-0.00285864,-0.00279188,-0.00284195,-0.00276089,-0.00280857,-0.00278473,-0.00278712,-0.00279188,-0.00282765,-0.00278473,-0.00277996,-0.00280857,-0.00278235,-0.00282288,-0.00279665,-0.00279665,-0.00283718,-0.00280857,-0.0028038,-0.00279665,-0.00282049,-0.00283003,-0.00281811,-0.00283241,-0.00277758,-0.00285149,-0.00283003,-0.00280857,-0.00280142,-0.00283003,-0.00277281
History:
0
0
