ProDataStore
Tue Apr 29 14:00:04 2014
Remarks:
5
#HT (Fluorescence channel): 759.995
#HT (Absorbance channel): 760
#Samples per point: 8000
#Sample period: 12.5 us
#Temperature: 22.71 C
0
Properties:
1
Fluorescence -dual
Dimensions:
3
Time -ovs 
100
0.1,0.2,0.3,0.4,0.5,0.6,0.7,0.8,0.9,1,1.1,1.2,1.3,1.4,1.5,1.6,1.7,1.8,1.9,2,2.1,2.2,2.3,2.4,2.5,2.6,2.7,2.8,2.9,3,3.1,3.2,3.3,3.4,3.5,3.6,3.7,3.8,3.9,4,4.1,4.2,4.3,4.4,4.5,4.6,4.7,4.8,4.9,5,5.1,5.2,5.3,5.4,5.5,5.6,5.7,5.8,5.9,6,6.1,6.2,6.3,6.4,6.5,6.6,6.7,6.8,6.9,7,7.1,7.2,7.3,7.4,7.5,7.6,7.7,7.8,7.9,8,8.1,8.2,8.3,8.4,8.5,8.6,8.7,8.8,8.9,9,9.1,9.2,9.3,9.4,9.5,9.6,9.7,9.8,9.9,10

Wavelength -iter
1
250

Channel
2
3,1



0.0949026,0.0967718,0.0899554,0.0886203,0.0905681,0.0909901,0.0985957,0.0894833,0.0932337,0.0852776,0.0979257,0.0954724,0.0965596,0.0904322,0.0916434,0.0903583,0.0877953,0.0854326,0.0869227,0.0926924,0.0939465,0.0967074,0.0944877,0.0874878,0.089531,0.0994325,0.0978876,0.0912142,0.0955654,0.0886417,0.0907112,0.0921226,0.0924969,0.0931836,0.0880647,0.0958324,0.0878072,0.0906349,0.0873757,0.0934482,0.091529,0.0888229,0.0870395,0.0941802,0.0943232,0.0908089,0.086403,0.0851155,0.0939918,0.0853921,0.0899959,0.0892711,0.0921083,0.0939227,0.0969172,0.0964308,0.0981022,0.085857,0.0857401,0.0938273,0.0908542,0.0918318,0.0932861,0.0910998,0.0923491,0.095532,0.0892425,0.0927759,0.0994182,0.0936866,0.0887871,0.0894309,0.0952602,0.0954891,0.0949884,0.0909305,0.0910998,0.0858617,0.0872112,0.0903965,0.0948382,0.0999642,0.0890208,0.0960327,0.0928856,0.0854087,0.0908972,0.0926471,0.0917912,0.0883341,0.0938798,0.0916053,0.0894118,0.0991441,0.09228,0.0905848,0.0963593,0.0971866,0.0862933,0.0851632

0.0453425,0.0458408,0.0427246,0.0452209,0.0431013,0.0438714,0.0436402,0.0453735,0.0490737,0.0441003,0.0446296,0.0420499,0.0362039,0.0381232,0.0375939,0.0462056,0.0454355,0.0414467,0.0368858,0.0373793,0.042665,0.0454116,0.0346875,0.0330925,0.0378585,0.0322533,0.0333953,0.0340462,0.0348091,0.0342965,0.0333715,0.0317693,0.0337959,0.0345612,0.0327111,0.0364304,0.0346089,0.0401545,0.0465179,0.0469447,0.0475097,0.0508094,0.0463653,0.0513316,0.0471497,0.0436735,0.0495077,0.0511504,0.0466204,0.0469995,0.0483489,0.0471068,0.0471211,0.0481391,0.048883,0.0470901,0.0472951,0.0506735,0.047729,0.0470972,0.0479889,0.0486398,0.0455022,0.0456786,0.0514055,0.0443101,0.0501991,0.0434447,0.0473571,0.0446248,0.0522519,0.0443054,0.0477696,0.0515652,0.0492716,0.0461197,0.0477839,0.0473667,0.0466156,0.0459814,0.0501228,0.0504852,0.0513792,0.0491691,0.04915,0.0524903,0.0495983,0.0463462,0.0537014,0.0501728,0.0494767,0.0487924,0.0470949,0.0481725,0.0465775,0.0471616,0.0463295,0.046947,0.047462,0.0445915
History:
0
0
