ProDataStore
Tue Apr 29 13:53:44 2014
Remarks:
5
#HT (Fluorescence channel): 940.002
#HT (Absorbance channel): 940
#Samples per point: 8000
#Sample period: 12.5 us
#Temperature: 22.71 C
0
Properties:
1
Fluorescence -dual
Dimensions:
3
Time -ovs 
100
0.1,0.2,0.3,0.4,0.5,0.6,0.7,0.8,0.9,1,1.1,1.2,1.3,1.4,1.5,1.6,1.7,1.8,1.9,2,2.1,2.2,2.3,2.4,2.5,2.6,2.7,2.8,2.9,3,3.1,3.2,3.3,3.4,3.5,3.6,3.7,3.8,3.9,4,4.1,4.2,4.3,4.4,4.5,4.6,4.7,4.8,4.9,5,5.1,5.2,5.3,5.4,5.5,5.6,5.7,5.8,5.9,6,6.1,6.2,6.3,6.4,6.5,6.6,6.7,6.8,6.9,7,7.1,7.2,7.3,7.4,7.5,7.6,7.7,7.8,7.9,8,8.1,8.2,8.3,8.4,8.5,8.6,8.7,8.8,8.9,9,9.1,9.2,9.3,9.4,9.5,9.6,9.7,9.8,9.9,10

Wavelength -iter
1
250

Channel
2
3,1



0.99037,0.992981,1.01803,1.01576,1.00892,1.02182,1.04426,1.00555,1.00589,1.0086,1.03137,0.998421,0.97024,1.04849,0.967279,0.98832,0.951536,0.994869,1.00847,0.993291,0.953921,1.00756,0.991648,1.02523,1.02927,1.01467,0.960372,0.972574,1.05274,1.0149,1.02716,1.00727,1.01343,0.975414,0.969535,0.952876,1.0077,1.00746,1.00936,0.95728,0.909086,1.0674,1.00913,1.02859,0.991126,0.977929,0.974017,0.984197,0.998655,0.969234,1.01637,1.00336,1.03643,1.03762,0.973686,0.970414,1.06075,0.987976,1.00829,1.01919,0.971826,1.04478,0.944775,1.02287,1.02797,0.959037,1.03982,1.04806,0.994931,1.02087,1.01438,1.06278,0.997997,0.939918,0.947414,0.993214,0.979505,0.970844,0.993808,1.04167,0.954741,1.02036,1.01845,0.922392,0.981885,1.03861,0.986946,1.01599,1.02483,0.991569,1.01432,1.03442,1.01585,0.929638,0.964702,0.979152,1.00376,0.959132,1.01887,1.00319

0.603421,0.574909,0.64061,0.604446,0.697651,0.534594,0.456958,0.416179,0.399096,0.430229,0.429175,0.489092,0.453277,0.467692,0.483609,0.540822,0.496965,0.453544,0.476227,0.512863,0.660789,0.748835,0.651734,0.696021,0.688315,0.659066,0.681463,0.641175,0.685914,0.640333,0.640262,0.681074,0.666867,0.601738,0.673173,0.620361,0.696273,0.674639,0.652991,0.632506,0.662461,0.590816,0.631946,0.636156,0.545197,0.538996,0.466762,0.485955,0.499032,0.523398,0.464428,0.538547,0.638516,0.613752,0.668464,0.638388,0.616656,0.580204,0.532422,0.508004,0.486145,0.468183,0.482853,0.49208,0.440884,0.433977,0.448833,0.427037,0.456398,0.433545,0.456024,0.45322,0.453885,0.416911,0.443626,0.470441,0.433314,0.445273,0.406881,0.453861,0.382748,0.411334,0.430749,0.430124,0.436907,0.434869,0.394686,0.453761,0.509405,0.479594,0.457819,0.45631,0.457561,0.509441,0.519998,0.508521,0.532673,0.496338,0.508433,0.56042
History:
0
0
