ProDataStore
Tue Apr 29 13:59:22 2014
Remarks:
5
#HT (Fluorescence channel): 779.999
#HT (Absorbance channel): 780
#Samples per point: 8000
#Sample period: 12.5 us
#Temperature: 22.71 C
0
Properties:
1
Fluorescence -dual
Dimensions:
3
Time -ovs 
100
0.1,0.2,0.3,0.4,0.5,0.6,0.7,0.8,0.9,1,1.1,1.2,1.3,1.4,1.5,1.6,1.7,1.8,1.9,2,2.1,2.2,2.3,2.4,2.5,2.6,2.7,2.8,2.9,3,3.1,3.2,3.3,3.4,3.5,3.6,3.7,3.8,3.9,4,4.1,4.2,4.3,4.4,4.5,4.6,4.7,4.8,4.9,5,5.1,5.2,5.3,5.4,5.5,5.6,5.7,5.8,5.9,6,6.1,6.2,6.3,6.4,6.5,6.6,6.7,6.8,6.9,7,7.1,7.2,7.3,7.4,7.5,7.6,7.7,7.8,7.9,8,8.1,8.2,8.3,8.4,8.5,8.6,8.7,8.8,8.9,9,9.1,9.2,9.3,9.4,9.5,9.6,9.7,9.8,9.9,10

Wavelength -iter
1
250

Channel
2
3,1



0.122995,0.116334,0.120375,0.123701,0.114391,0.12007,0.118375,0.116994,0.117736,0.112696,0.117939,0.112856,0.116599,0.109434,0.12094,0.122717,0.116751,0.120604,0.120669,0.120812,0.118578,0.12568,0.120046,0.11699,0.127356,0.108292,0.120223,0.12012,0.11735,0.116758,0.119712,0.120444,0.121682,0.117948,0.119205,0.110757,0.133619,0.121389,0.115552,0.121091,0.112629,0.118797,0.118954,0.127037,0.117598,0.121148,0.114272,0.112629,0.123134,0.122848,0.113399,0.113154,0.114079,0.114842,0.115025,0.117433,0.122428,0.118952,0.113885,0.118504,0.109797,0.120409,0.115771,0.117207,0.120967,0.120738,0.123677,0.114982,0.117462,0.122712,0.114348,0.11497,0.116053,0.116878,0.114534,0.116334,0.12383,0.116587,0.114222,0.117295,0.121965,0.121472,0.116406,0.116525,0.11652,0.112994,0.113814,0.122345,0.111175,0.121648,0.113132,0.121124,0.119062,0.108516,0.12125,0.118356,0.119169,0.118008,0.122457,0.119588

0.04524,0.0405598,0.0448704,0.0468827,0.0424004,0.0409746,0.0472069,0.0430346,0.045681,0.048008,0.0456667,0.043509,0.0437832,0.045209,0.04951,0.0439096,0.0452495,0.0511861,0.0483084,0.0450993,0.0416398,0.045228,0.0425458,0.0442672,0.0489736,0.042243,0.0399208,0.0426603,0.0437784,0.0506735,0.0468326,0.0493241,0.0473118,0.047493,0.0478196,0.0466395,0.0466895,0.0453616,0.0464869,0.0445104,0.0437308,0.046072,0.0464154,0.0442791,0.0452042,0.0499583,0.0475788,0.0515485,0.0475455,0.0427771,0.0531602,0.0498248,0.0445271,0.0432825,0.0454235,0.0399566,0.0461793,0.046041,0.044427,0.0466085,0.0487852,0.0495434,0.0484538,0.0422669,0.0459385,0.0477815,0.0468636,0.0468612,0.0487185,0.0476027,0.0469661,0.043664,0.0443697,0.0434876,0.0468517,0.048914,0.0458336,0.0486422,0.0496889,0.0482607,0.0500512,0.0470186,0.0467706,0.0461889,0.0487042,0.0478626,0.0482607,0.0426913,0.0449539,0.0477434,0.0484085,0.0477815,0.0549341,0.0459481,0.0460124,0.046916,0.047884,0.0477767,0.0478149,0.0527835
History:
0
0
