ProDataStore
Tue Apr 29 14:09:55 2014
Remarks:
5
#HT (Fluorescence channel): 479.996
#HT (Absorbance channel): 480
#Samples per point: 8000
#Sample period: 12.5 us
#Temperature: 22.71 C
0
Properties:
1
Fluorescence -dual
Dimensions:
3
Time -ovs 
100
0.1,0.2,0.3,0.4,0.5,0.6,0.7,0.8,0.9,1,1.1,1.2,1.3,1.4,1.5,1.6,1.7,1.8,1.9,2,2.1,2.2,2.3,2.4,2.5,2.6,2.7,2.8,2.9,3,3.1,3.2,3.3,3.4,3.5,3.6,3.7,3.8,3.9,4,4.1,4.2,4.3,4.4,4.5,4.6,4.7,4.8,4.9,5,5.1,5.2,5.3,5.4,5.5,5.6,5.7,5.8,5.9,6,6.1,6.2,6.3,6.4,6.5,6.6,6.7,6.8,6.9,7,7.1,7.2,7.3,7.4,7.5,7.6,7.7,7.8,7.9,8,8.1,8.2,8.3,8.4,8.5,8.6,8.7,8.8,8.9,9,9.1,9.2,9.3,9.4,9.5,9.6,9.7,9.8,9.9,10

Wavelength -iter
1
250

Channel
2
3,1



-0.000722409,-0.00071764,-0.000772477,-0.000662804,-0.000696183,-0.00086546,-0.000834466,-0.000748635,-0.000674725,-0.00079155,-0.00086546,-0.000901223,-0.000715256,-0.000767708,-0.000827313,-0.000786782,-0.000658036,-0.000755787,-0.000655652,-0.000708104,-0.000827313,-0.000793934,-0.000653267,-0.000665188,-0.000886918,-0.000789166,-0.000665188,-0.000746251,-0.000879765,-0.000898839,-0.000746251,-0.000815392,-0.000824929,-0.000622273,-0.000698567,-0.000832081,-0.000591278,-0.000839234,-0.000755787,-0.000801087,-0.000798703,-0.000662804,-0.000772477,-0.000832081,-0.000777245,-0.000839234,-0.000739098,-0.00073433,-0.000770093,-0.000662804,-0.000848771,-0.000796319,-0.000984669,-0.000677109,-0.000839234,-0.00068903,-0.000824929,-0.000801087,-0.00070572,-0.000782014,-0.000774861,-0.00079155,-0.000722409,-0.000672341,-0.000874997,-0.00070572,-0.00076294,-0.000653267,-0.000848771,-0.000813008,-0.000841618,-0.000884534,-0.00068903,-0.000774861,-0.000677109,-0.000691414,-0.00066042,-0.00070572,-0.000653267,-0.000851155,-0.000874997,-0.000772477,-0.000715256,-0.000784398,-0.000722409,-0.000641346,-0.000686646,-0.000739098,-0.000703335,-0.000696183,-0.000755787,-0.000722409,-0.000813008,-0.000760556,-0.000801087,-0.000712872,-0.000643731,-0.00066042,-0.000822545,-0.000817776

-0.00265598,-0.00272036,-0.00264168,-0.00269413,-0.00271321,-0.00271321,-0.00269652,-0.00269175,-0.00265598,-0.00270367,-0.00267983,-0.00272036,-0.00271797,-0.00267983,-0.0026989,-0.00275135,-0.00271559,-0.00269652,-0.00269413,-0.00276804,-0.00268936,-0.00269413,-0.00273466,-0.00272036,-0.00267506,-0.00268698,-0.00271082,-0.00270605,-0.00267267,-0.00269413,-0.00271321,-0.00269413,-0.00269652,-0.00270844,-0.00270367,-0.00278473,-0.00266314,-0.00274182,-0.0026989,-0.00275612,-0.00270844,-0.00272274,-0.00277519,-0.00269175,-0.00270605,-0.00272036,-0.00270605,-0.00271321,-0.0027442,-0.00268936,-0.00273466,-0.00278235,-0.00271559,-0.00274182,-0.00271559,-0.00271797,-0.00275374,-0.00268221,-0.00273705,-0.00274182,-0.00272751,-0.00272989,-0.00272036,-0.00270128,-0.00269413,-0.00269652,-0.00267506,-0.00270605,-0.00272513,-0.00271082,-0.00270128,-0.00272751,-0.00275612,-0.00268936,-0.00271559,-0.00269652,-0.00273705,-0.00274658,-0.00271321,-0.00272513,-0.00266075,-0.00274658,-0.00271797,-0.00272989,-0.00269652,-0.00273228,-0.00275135,-0.00272751,-0.00272274,-0.00269652,-0.00271082,-0.00267267,-0.00272751,-0.00272036,-0.00270128,-0.00270844,-0.00272989,-0.00269652,-0.00269652,-0.00268221
History:
0
0
