ProDataStore
Tue Apr 29 14:00:25 2014
Remarks:
5
#HT (Fluorescence channel): 750
#HT (Absorbance channel): 750
#Samples per point: 8000
#Sample period: 12.5 us
#Temperature: 22.71 C
0
Properties:
1
Fluorescence -dual
Dimensions:
3
Time -ovs 
100
0.1,0.2,0.3,0.4,0.5,0.6,0.7,0.8,0.9,1,1.1,1.2,1.3,1.4,1.5,1.6,1.7,1.8,1.9,2,2.1,2.2,2.3,2.4,2.5,2.6,2.7,2.8,2.9,3,3.1,3.2,3.3,3.4,3.5,3.6,3.7,3.8,3.9,4,4.1,4.2,4.3,4.4,4.5,4.6,4.7,4.8,4.9,5,5.1,5.2,5.3,5.4,5.5,5.6,5.7,5.8,5.9,6,6.1,6.2,6.3,6.4,6.5,6.6,6.7,6.8,6.9,7,7.1,7.2,7.3,7.4,7.5,7.6,7.7,7.8,7.9,8,8.1,8.2,8.3,8.4,8.5,8.6,8.7,8.8,8.9,9,9.1,9.2,9.3,9.4,9.5,9.6,9.7,9.8,9.9,10

Wavelength -iter
1
250

Channel
2
3,1



0.0799657,0.0851727,0.0801659,0.0776768,0.0785518,0.0794078,0.0777221,0.090673,0.0761176,0.0763894,0.0863457,0.0794078,0.0819922,0.0822402,0.0806285,0.0849748,0.0815702,0.081544,0.0804186,0.0765682,0.076902,0.0752831,0.077808,0.0824524,0.0827075,0.0819445,0.0800944,0.0800467,0.0770593,0.0827671,0.0863672,0.0779796,0.0798131,0.0840927,0.083375,0.077436,0.0819255,0.0800491,0.0872994,0.0759841,0.0767875,0.0800706,0.0834299,0.0825096,0.0828314,0.0769783,0.0757909,0.0794292,0.0808693,0.0810385,0.0760603,0.0788665,0.0802088,0.0817586,0.085578,0.0804926,0.0798298,0.0840259,0.0784398,0.0777793,0.0794936,0.0796629,0.0844288,0.0759912,0.0828577,0.0805426,0.0791813,0.0822425,0.0772286,0.0779462,0.0835562,0.0802732,0.0775052,0.0824857,0.0779796,0.0846077,0.0789238,0.0823379,0.0812889,0.0807691,0.0794626,0.079608,0.0823403,0.0774861,0.0783992,0.0827695,0.082779,0.0801826,0.076027,0.0776554,0.0769616,0.0851417,0.0771642,0.0818706,0.0813413,0.0809932,0.0773263,0.0806428,0.0744892,0.0820447

0.0314856,0.0309301,0.0282073,0.0311184,0.0272393,0.0299669,0.0296736,0.0315857,0.0301051,0.0304747,0.0271702,0.0304318,0.0291729,0.0269056,0.029583,0.0280667,0.0281978,0.0310064,0.032053,0.0312448,0.0313497,0.0311446,0.0297713,0.029397,0.0308538,0.029726,0.0301552,0.0287533,0.0292182,0.0314737,0.0310374,0.0270724,0.0293684,0.028646,0.0286198,0.0287557,0.0269675,0.0262809,0.0262928,0.0298381,0.029707,0.0310421,0.0269127,0.0293184,0.0319123,0.030551,0.0294471,0.0296474,0.0287795,0.0295043,0.0338149,0.0391531,0.0399566,0.0383759,0.0357676,0.0407601,0.041728,0.0421286,0.0390578,0.0376678,0.0404668,0.0405336,0.0447393,0.0416851,0.0383473,0.0394035,0.039239,0.0397039,0.0390268,0.0410247,0.0408054,0.0480271,0.043509,0.0434661,0.0411415,0.0435758,0.0402141,0.0380397,0.0401402,0.0414229,0.0419665,0.0434184,0.0441337,0.0420928,0.044427,0.0454426,0.0458002,0.0412417,0.045867,0.0427771,0.036633,0.0426889,0.0376296,0.0431776,0.0403285,0.0411773,0.0441265,0.0424767,0.046494,0.0399876
History:
0
0
