ProDataStore
Tue Apr 29 13:54:47 2014
Remarks:
5
#HT (Fluorescence channel): 910.004
#HT (Absorbance channel): 910
#Samples per point: 8000
#Sample period: 12.5 us
#Temperature: 22.71 C
0
Properties:
1
Fluorescence -dual
Dimensions:
3
Time -ovs 
100
0.1,0.2,0.3,0.4,0.5,0.6,0.7,0.8,0.9,1,1.1,1.2,1.3,1.4,1.5,1.6,1.7,1.8,1.9,2,2.1,2.2,2.3,2.4,2.5,2.6,2.7,2.8,2.9,3,3.1,3.2,3.3,3.4,3.5,3.6,3.7,3.8,3.9,4,4.1,4.2,4.3,4.4,4.5,4.6,4.7,4.8,4.9,5,5.1,5.2,5.3,5.4,5.5,5.6,5.7,5.8,5.9,6,6.1,6.2,6.3,6.4,6.5,6.6,6.7,6.8,6.9,7,7.1,7.2,7.3,7.4,7.5,7.6,7.7,7.8,7.9,8,8.1,8.2,8.3,8.4,8.5,8.6,8.7,8.8,8.9,9,9.1,9.2,9.3,9.4,9.5,9.6,9.7,9.8,9.9,10

Wavelength -iter
1
250

Channel
2
3,1



0.661183,0.657042,0.674892,0.629588,0.643523,0.654498,0.663436,0.669268,0.663891,0.641211,0.666979,0.659624,0.644193,0.65619,0.67309,0.666278,0.669322,0.666316,0.655277,0.651715,0.688003,0.634854,0.631705,0.655976,0.672701,0.6895,0.704952,0.640307,0.691483,0.675209,0.670243,0.666805,0.6333,0.659659,0.636185,0.661433,0.647567,0.674859,0.68394,0.635331,0.682409,0.661264,0.669687,0.675741,0.622256,0.713571,0.65775,0.70674,0.614903,0.665703,0.648194,0.696455,0.638085,0.663865,0.672336,0.653515,0.635415,0.633655,0.683303,0.627351,0.645357,0.626629,0.672384,0.649906,0.648485,0.676129,0.621503,0.667608,0.671945,0.632668,0.654331,0.680142,0.646348,0.683578,0.660859,0.671812,0.638876,0.628965,0.652543,0.664828,0.671301,0.655442,0.638936,0.640374,0.650263,0.670326,0.648122,0.68971,0.653699,0.647018,0.643597,0.704668,0.694609,0.634737,0.642732,0.663682,0.635593,0.689581,0.621839,0.645102

0.445586,0.442386,0.499573,0.472439,0.534158,0.481778,0.474007,0.486076,0.469232,0.505214,0.495582,0.508283,0.512543,0.492695,0.488713,0.48503,0.516258,0.46145,0.468161,0.468157,0.449112,0.456806,0.448413,0.447872,0.431981,0.464607,0.480626,0.488034,0.47853,0.46052,0.43485,0.446825,0.462139,0.436559,0.466938,0.447226,0.48924,0.464094,0.476704,0.46057,0.467682,0.441256,0.461729,0.475509,0.445516,0.430844,0.46845,0.45177,0.44559,0.44761,0.453759,0.473261,0.454586,0.458064,0.511747,0.489872,0.445786,0.476132,0.48399,0.457681,0.45034,0.469289,0.440195,0.468691,0.499049,0.516644,0.424755,0.450507,0.458286,0.411291,0.45286,0.426302,0.437169,0.44956,0.439918,0.440109,0.483959,0.51924,0.479541,0.468219,0.469749,0.441256,0.452447,0.442896,0.424326,0.442131,0.418089,0.460825,0.465412,0.458935,0.478778,0.438419,0.420456,0.445175,0.4704,0.449827,0.483706,0.487552,0.450282,0.442818
History:
0
0
