ProDataStore
Tue Apr 29 13:59:01 2014
Remarks:
5
#HT (Fluorescence channel): 789.993
#HT (Absorbance channel): 790
#Samples per point: 8000
#Sample period: 12.5 us
#Temperature: 22.71 C
0
Properties:
1
Fluorescence -dual
Dimensions:
3
Time -ovs 
100
0.1,0.2,0.3,0.4,0.5,0.6,0.7,0.8,0.9,1,1.1,1.2,1.3,1.4,1.5,1.6,1.7,1.8,1.9,2,2.1,2.2,2.3,2.4,2.5,2.6,2.7,2.8,2.9,3,3.1,3.2,3.3,3.4,3.5,3.6,3.7,3.8,3.9,4,4.1,4.2,4.3,4.4,4.5,4.6,4.7,4.8,4.9,5,5.1,5.2,5.3,5.4,5.5,5.6,5.7,5.8,5.9,6,6.1,6.2,6.3,6.4,6.5,6.6,6.7,6.8,6.9,7,7.1,7.2,7.3,7.4,7.5,7.6,7.7,7.8,7.9,8,8.1,8.2,8.3,8.4,8.5,8.6,8.7,8.8,8.9,9,9.1,9.2,9.3,9.4,9.5,9.6,9.7,9.8,9.9,10

Wavelength -iter
1
250

Channel
2
3,1



0.135777,0.124564,0.139349,0.133786,0.133541,0.140417,0.126767,0.135424,0.138886,0.140975,0.136783,0.135312,0.13978,0.136666,0.13763,0.136483,0.128815,0.130389,0.132749,0.141204,0.131044,0.132763,0.130785,0.134449,0.14247,0.12979,0.131898,0.127668,0.133104,0.146794,0.137732,0.135558,0.131872,0.133128,0.122655,0.12193,0.138548,0.136175,0.136848,0.127609,0.136137,0.123904,0.139384,0.134642,0.141134,0.133364,0.133102,0.137732,0.135052,0.14077,0.143058,0.129583,0.127866,0.138683,0.136602,0.138118,0.136106,0.125327,0.138803,0.129681,0.134299,0.136345,0.129693,0.13999,0.134459,0.130403,0.145934,0.129254,0.139382,0.132377,0.132296,0.129891,0.134337,0.132163,0.131283,0.133944,0.135958,0.146003,0.137606,0.13639,0.129037,0.143135,0.132451,0.130065,0.138676,0.133648,0.141122,0.140867,0.138209,0.138505,0.141161,0.131238,0.123553,0.133574,0.132394,0.130668,0.131972,0.135012,0.12826,0.130262

0.0681234,0.0743866,0.0709892,0.0755811,0.0731993,0.0793839,0.0701762,0.0706077,0.0670886,0.0777364,0.0777865,0.0770879,0.0729013,0.0728894,0.0684262,0.0598908,0.0575185,0.0587607,0.0640798,0.0664974,0.0661707,0.0640536,0.0645566,0.0627137,0.0609756,0.0568605,0.059259,0.0642086,0.0673938,0.0715566,0.0649357,0.0696803,0.0700713,0.0672365,0.0664854,0.0703931,0.0669313,0.0642705,0.0612593,0.0696874,0.0722123,0.0651026,0.0704074,0.0652791,0.0668216,0.0653649,0.0745321,0.061884,0.0599456,0.0560117,0.0498414,0.051055,0.0520587,0.0503159,0.0485325,0.0525761,0.0489307,0.0504375,0.0505185,0.0548554,0.0475574,0.0508571,0.0498748,0.0525833,0.0523234,0.0500679,0.0553441,0.0498081,0.047431,0.0481129,0.0488258,0.0522757,0.0498963,0.055008,0.0497413,0.054164,0.0527597,0.0501871,0.0518513,0.0524664,0.0468588,0.0588036,0.0538993,0.0549579,0.0516224,0.0530601,0.0522948,0.046618,0.0554157,0.0492955,0.0545597,0.050745,0.0529862,0.0485516,0.0488901,0.0474143,0.053463,0.054729,0.0507617,0.0479532
History:
0
0
