ProDataStore
Tue Apr 29 13:58:39 2014
Remarks:
5
#HT (Fluorescence channel): 800.003
#HT (Absorbance channel): 800
#Samples per point: 8000
#Sample period: 12.5 us
#Temperature: 22.71 C
0
Properties:
1
Fluorescence -dual
Dimensions:
3
Time -ovs 
100
0.1,0.2,0.3,0.4,0.5,0.6,0.7,0.8,0.9,1,1.1,1.2,1.3,1.4,1.5,1.6,1.7,1.8,1.9,2,2.1,2.2,2.3,2.4,2.5,2.6,2.7,2.8,2.9,3,3.1,3.2,3.3,3.4,3.5,3.6,3.7,3.8,3.9,4,4.1,4.2,4.3,4.4,4.5,4.6,4.7,4.8,4.9,5,5.1,5.2,5.3,5.4,5.5,5.6,5.7,5.8,5.9,6,6.1,6.2,6.3,6.4,6.5,6.6,6.7,6.8,6.9,7,7.1,7.2,7.3,7.4,7.5,7.6,7.7,7.8,7.9,8,8.1,8.2,8.3,8.4,8.5,8.6,8.7,8.8,8.9,9,9.1,9.2,9.3,9.4,9.5,9.6,9.7,9.8,9.9,10

Wavelength -iter
1
250

Channel
2
3,1



0.165622,0.146966,0.160022,0.14988,0.15019,0.147145,0.158262,0.154955,0.153608,0.157726,0.154758,0.14914,0.148101,0.150526,0.157738,0.153041,0.154431,0.151532,0.149706,0.153566,0.146909,0.167999,0.156915,0.162628,0.14693,0.157187,0.148389,0.153189,0.144978,0.15554,0.144856,0.156543,0.149665,0.15465,0.147369,0.143793,0.146158,0.162823,0.160463,0.160492,0.153031,0.161932,0.153203,0.150702,0.153937,0.157359,0.156648,0.149241,0.157769,0.148924,0.149109,0.157395,0.160449,0.151,0.14719,0.14245,0.160957,0.146642,0.166197,0.158477,0.14422,0.156186,0.152211,0.148935,0.151475,0.15121,0.149374,0.157235,0.150714,0.155506,0.145364,0.157941,0.154021,0.142591,0.141444,0.151954,0.152044,0.161362,0.148447,0.152047,0.157676,0.145612,0.150936,0.160296,0.155382,0.151346,0.144594,0.144081,0.155685,0.153811,0.159543,0.150557,0.155358,0.143809,0.150459,0.154059,0.170257,0.144634,0.139821,0.167651

0.0606275,0.0540972,0.0595594,0.0669122,0.0584269,0.0570226,0.0555897,0.0573612,0.0561333,0.05651,0.0542522,0.0528622,0.0572062,0.0546837,0.065434,0.0577999,0.0506306,0.0594497,0.0555778,0.0516081,0.0575209,0.058043,0.0556398,0.0583172,0.0557471,0.0578952,0.0573659,0.0643874,0.0576616,0.0584317,0.0542331,0.0543738,0.0583029,0.0564409,0.0560475,0.0612283,0.0540305,0.0576592,0.0530506,0.0669837,0.0581527,0.0568414,0.0573254,0.0561262,0.0541902,0.0615621,0.0613142,0.0537515,0.0600601,0.0562334,0.0595761,0.0579215,0.0564433,0.0569535,0.0556326,0.0582266,0.0575376,0.0587845,0.0672079,0.0572324,0.0537062,0.0630689,0.0570298,0.0626207,0.0577832,0.0570703,0.0588108,0.0600768,0.0516773,0.0578404,0.0569964,0.0633073,0.0657535,0.057211,0.0637556,0.0594473,0.0549508,0.0592423,0.0562621,0.0611258,0.0604606,0.0558329,0.0605631,0.0598622,0.054071,0.0631643,0.0644803,0.0553298,0.0594855,0.0622321,0.0605798,0.0580287,0.0561262,0.0605488,0.0579834,0.0596309,0.0586152,0.0587702,0.0581003,0.0583387
History:
0
0
