ProDataStore
Tue Apr 29 13:59:43 2014
Remarks:
5
#HT (Fluorescence channel): 770.004
#HT (Absorbance channel): 770
#Samples per point: 8000
#Sample period: 12.5 us
#Temperature: 22.71 C
0
Properties:
1
Fluorescence -dual
Dimensions:
3
Time -ovs 
100
0.1,0.2,0.3,0.4,0.5,0.6,0.7,0.8,0.9,1,1.1,1.2,1.3,1.4,1.5,1.6,1.7,1.8,1.9,2,2.1,2.2,2.3,2.4,2.5,2.6,2.7,2.8,2.9,3,3.1,3.2,3.3,3.4,3.5,3.6,3.7,3.8,3.9,4,4.1,4.2,4.3,4.4,4.5,4.6,4.7,4.8,4.9,5,5.1,5.2,5.3,5.4,5.5,5.6,5.7,5.8,5.9,6,6.1,6.2,6.3,6.4,6.5,6.6,6.7,6.8,6.9,7,7.1,7.2,7.3,7.4,7.5,7.6,7.7,7.8,7.9,8,8.1,8.2,8.3,8.4,8.5,8.6,8.7,8.8,8.9,9,9.1,9.2,9.3,9.4,9.5,9.6,9.7,9.8,9.9,10

Wavelength -iter
1
250

Channel
2
3,1



0.103083,0.10123,0.104387,0.102835,0.103052,0.0983358,0.112286,0.103109,0.100427,0.109947,0.103924,0.105543,0.106082,0.103028,0.104842,0.10354,0.108078,0.104761,0.100122,0.104616,0.106878,0.1032,0.103321,0.103376,0.0998855,0.106175,0.10231,0.102518,0.104702,0.105834,0.100885,0.102718,0.104201,0.104876,0.103316,0.104642,0.100026,0.105171,0.105825,0.105946,0.0980664,0.107765,0.106976,0.0973249,0.106828,0.100246,0.100818,0.10052,0.106585,0.103779,0.100899,0.103834,0.0964714,0.101967,0.109558,0.105012,0.107644,0.104671,0.10756,0.103529,0.107975,0.104451,0.108187,0.100224,0.107422,0.103149,0.105925,0.105238,0.100463,0.0982023,0.105822,0.10432,0.102115,0.104177,0.104857,0.0956488,0.0992656,0.10736,0.102146,0.0975204,0.109818,0.104377,0.104389,0.107627,0.109136,0.102923,0.0999976,0.101757,0.0982643,0.105681,0.104129,0.10318,0.105231,0.102532,0.10638,0.103479,0.106285,0.103099,0.0996257,0.097952

0.0394774,0.0390673,0.0373936,0.0412464,0.038898,0.038364,0.0408173,0.0382257,0.0415564,0.0403071,0.0413251,0.0372076,0.0440693,0.0408578,0.0407267,0.0400544,0.039804,0.0417447,0.0379324,0.0424958,0.0394774,0.043087,0.0415659,0.0404954,0.040884,0.0436807,0.0402618,0.0428295,0.0426174,0.0405217,0.0386811,0.0439835,0.039649,0.0408173,0.0355268,0.0409794,0.041194,0.0456524,0.0414849,0.0395489,0.0404716,0.041914,0.0428963,0.042193,0.0424266,0.0446225,0.0422073,0.0407911,0.0397969,0.0414944,0.0370598,0.0436282,0.0439406,0.0444532,0.0460482,0.0432015,0.0463581,0.0452948,0.044899,0.0445152,0.0442481,0.0442243,0.0454259,0.0474191,0.0442767,0.0455451,0.0450468,0.0420308,0.0412727,0.0412846,0.0420332,0.0416732,0.0445009,0.0430966,0.041585,0.0467968,0.0436521,0.0445295,0.044775,0.0492549,0.0450302,0.0449777,0.0472093,0.0407028,0.0416375,0.0394178,0.0448323,0.0464321,0.0500441,0.0442386,0.0439573,0.0446368,0.0442362,0.0451923,0.0502634,0.0522089,0.0553561,0.0548768,0.05193,0.0573063
History:
0
0
